IIS3DWB 3-axis accelerometer by STM32
Configuration: FIFO continuous mode WTM = 20 Sensibility = +-4g
Timestamp resolution = 12.5us/LSB accel resolution 0.122mg/LSB

Timestamp(us) accelX(mg) accelY(mg) accelZ(mg)
26707.00 0 0 0 
8039 361 -799 8145 
8042 538 -802 7887 
8045 666 -754 7891 
8048 342 -821 7842 
8051 440 -643 7769 
8054 530 -751 7879 
8057 440 -755 7769 
8060 428 -762 8008 
8063 470 -736 7781 
8066 556 -673 7902 
9497 470 -658 7842 
9500 327 -725 8006 
9503 511 -725 7801 
9506 357 -677 7877 
9509 485 -677 7987 
9512 425 -777 7846 
9515 477 -644 7641 
9518 342 -755 7998 
9521 556 -692 7854 
9524 556 -673 7902 
11027 537 -788 7952 
11030 386 -877 8055 
11033 638 -599 7812 
11036 514 -762 7972 
11039 469 -728 8048 
11042 665 -510 7759 
11045 495 -721 7762 
11048 522 -766 7846 
11051 469 -695 7854 
11054 548 -762 7956 
12554 519 -658 7786 
12557 364 -917 7968 
12560 590 -610 8059 
12563 312 -699 7877 
12566 621 -788 7808 
12569 361 -610 7918 
12572 556 -773 7926 
12575 564 -758 7766 
12578 462 -677 7850 
12581 548 -762 7956 
14144 613 -577 7652 
14147 425 -836 7888 
14150 545 -643 7850 
14153 436 -710 7968 
14156 628 -673 7755 
14159 470 -706 7903 
14162 492 -695 7820 
14165 515 -792 7896 
14168 481 -725 7926 
14171 548 -762 7956 
15674 450 -666 7831 
15677 458 -644 7850 
15680 412 -866 7812 
15683 540 -677 7793 
15686 435 -777 7797 
15689 398 -773 8051 
15692 661 -706 7790 
15695 424 -562 7915 
15698 537 -669 7884 
15701 469 -669 7941 
17204 530 -706 7782 
17207 470 -736 7899 
17210 583 -588 7804 
17213 285 -803 7979 
17216 590 -573 7843 
17219 379 -806 7892 
17222 485 -725 7725 
17225 462 -736 7770 
17228 447 -777 7789 
17231 635 -632 7941 
18794 455 -710 7899 
18797 462 -695 7815 
18800 398 -784 7895 
18803 538 -618 7735 
18806 511 -721 7910 
18809 504 -754 7724 
18812 688 -573 7838 
18815 485 -606 7868 
18818 473 -795 8088 
18821 635 -632 7941 
20324 414 -743 7983 
20327 515 -625 7812 
20330 609 -684 7766 
20333 466 -884 7907 
20336 458 -692 8024 
20339 466 -743 7812 
20342 425 -769 7934 
20345 458 -621 8013 
20348 538 -736 7869 
20351 538 -858 7918 
21914 380 -836 8062 
21917 444 -662 7982 
21920 417 -662 7780 
21923 312 -603 8024 
21926 508 -758 7819 
21929 300 -595 7849 
21932 410 -814 7910 
21935 470 -529 7693 
21938 402 -858 7940 
21941 402 -744 7921 
23441 496 -721 7974 
23444 639 -714 7678 
23447 368 -751 7822 
23450 553 -596 7922 
23453 368 -806 7842 
23456 545 -703 7925 
23459 368 -766 7868 
23462 481 -643 7860 
23465 523 -647 8096 
23468 402 -744 7921 
24971 334 -684 7784 
24974 428 -758 7925 
24977 545 -581 7705 
24980 481 -751 8008 
24983 466 -769 7906 
24986 519 -728 7868 
24989 598 -710 7853 
24992 447 -717 8016 
24995 504 -725 8005 
24998 421 -669 7800 
26564 481 -817 7823 
26567 421 -677 7968 
26570 545 -728 7831 
26573 432 -751 7816 
26576 451 -773 7937 
26579 508 -740 7884 
26582 387 -769 7850 
26585 586 -654 7861 
26588 541 -662 7880 
26591 515 -673 7790 
28091 544 -777 7816 
28094 439 -784 7918 
28097 420 -695 7793 
28100 650 -718 7926 
28103 254 -873 7900 
28106 627 -495 7683 
28109 367 -888 7884 
28112 556 -703 7865 
28115 318 -788 8032 
28118 515 -673 7790 
29681 474 -695 7858 
29684 583 -673 7930 
29687 508 -792 7763 
29690 451 -814 7911 
29693 605 -703 7884 
29696 417 -784 7869 
29699 564 -755 7903 
29702 560 -684 7884 
29705 466 -758 8009 
29708 515 -673 7790 
31211 533 -706 7945 
31214 424 -692 7763 
31217 412 -725 7998 
31220 616 -521 7709 
31223 416 -799 7918 
31226 375 -669 7816 
31229 408 -710 7831 
31232 469 -728 7854 
31235 499 -651 7934 
31238 515 -673 7790 
32741 319 -658 7884 
32744 296 -799 7975 
32747 602 -551 7679 
32750 530 -810 7842 
32753 466 -621 7876 
32756 485 -784 7858 
32759 477 -647 7694 
32762 444 -747 7820 
32765 628 -577 7713 
32768 323 -806 7800 
34334 495 -658 7770 
34337 394 -732 7930 
34340 506 -710 7804 
34343 360 -995 8078 
34346 616 -729 7907 
34349 435 -640 7687 
34352 514 -617 7820 
34695.34572 361 -799 8145 
34850.21592 538 -802 7887 
35005.08612 666 -754 7891 
35159.95631 342 -821 7842 
35314.82651 440 -643 7769 
35469.6967 530 -751 7879 
35624.5669 440 -755 7769 
35779.43709 428 -762 8008 
35934.30729 470 -736 7781 
36089.17749 556 -673 7902 
36244.04768 470 -658 7842 
36398.91788 327 -725 8006 
36553.78807 511 -725 7801 
36708.65827 357 -677 7877 
36863.52846 485 -677 7987 
37018.39866 425 -777 7846 
37173.26886 477 -644 7641 
37328.13905 342 -755 7998 
37483.00925 556 -692 7854 
37637.87944 556 -673 7902 
37792.74964 537 -788 7952 
37947.61983 386 -877 8055 
38102.49003 638 -599 7812 
38257.36023 514 -762 7972 
38412.23042 469 -728 8048 
38567.10062 665 -510 7759 
38721.97081 495 -721 7762 
38876.84101 522 -766 7846 
39031.7112 469 -695 7854 
39186.5814 548 -762 7956 
39341.4516 519 -658 7786 
39496.32179 364 -917 7968 
39651.19199 590 -610 8059 
39806.06218 312 -699 7877 
39960.93238 621 -788 7808 
40115.80257 361 -610 7918 
40270.67277 556 -773 7926 
40425.54297 564 -758 7766 
40580.41316 462 -677 7850 
40735.28336 548 -762 7956 
40890.15355 613 -577 7652 
41045.02375 425 -836 7888 
41199.89394 545 -643 7850 
41354.76414 436 -710 7968 
41509.63434 628 -673 7755 
41664.50453 470 -706 7903 
41819.37473 492 -695 7820 
41974.24492 515 -792 7896 
42129.11512 481 -725 7926 
42283.98531 548 -762 7956 
42438.85551 450 -666 7831 
42593.72571 458 -644 7850 
42748.5959 412 -866 7812 
42903.4661 540 -677 7793 
43058.33629 435 -777 7797 
43213.20649 398 -773 8051 
43368.07668 661 -706 7790 
43522.94688 424 -562 7915 
43677.81708 537 -669 7884 
43832.68727 469 -669 7941 
43987.55747 530 -706 7782 
44142.42766 470 -736 7899 
44297.29786 583 -588 7804 
44452.16805 285 -803 7979 
44607.03825 590 -573 7843 
44761.90845 379 -806 7892 
44916.77864 485 -725 7725 
45071.64884 462 -736 7770 
45226.51903 447 -777 7789 
45381.38923 635 -632 7941 
45536.25942 455 -710 7899 
45691.12962 462 -695 7815 
45845.99982 398 -784 7895 
46000.87001 538 -618 7735 
46155.74021 511 -721 7910 
46310.6104 504 -754 7724 
46465.4806 688 -573 7838 
46620.35079 485 -606 7868 
46775.22099 473 -795 8088 
46930.09119 635 -632 7941 
47084.96138 414 -743 7983 
47239.83158 515 -625 7812 
47394.70177 609 -684 7766 
47549.57197 466 -884 7907 
47704.44216 458 -692 8024 
47859.31236 466 -743 7812 
48014.18256 425 -769 7934 
48169.05275 458 -621 8013 
48323.92295 538 -736 7869 
48478.79314 538 -858 7918 
48633.66334 380 -836 8062 
48788.53353 444 -662 7982 
48943.40373 417 -662 7780 
49098.27393 312 -603 8024 
49253.14412 508 -758 7819 
49408.01432 300 -595 7849 
49562.88451 410 -814 7910 
49717.75471 470 -529 7693 
49872.6249 402 -858 7940 
50027.4951 402 -744 7921 
50182.3653 496 -721 7974 
50337.23549 639 -714 7678 
50492.10569 368 -751 7822 
50646.97588 553 -596 7922 
50801.84608 368 -806 7842 
50956.71627 545 -703 7925 
51111.58647 368 -766 7868 
51266.45667 481 -643 7860 
51421.32686 523 -647 8096 
51576.19706 402 -744 7921 
51731.06725 334 -684 7784 
51885.93745 428 -758 7925 
52040.80764 545 -581 7705 
52195.67784 481 -751 8008 
52350.54804 466 -769 7906 
52505.41823 519 -728 7868 
52660.28843 598 -710 7853 
52815.15862 447 -717 8016 
52970.02882 504 -725 8005 
53124.89901 421 -669 7800 
53279.76921 481 -817 7823 
53434.63941 421 -677 7968 
53589.5096 545 -728 7831 
53744.3798 432 -751 7816 
53899.24999 451 -773 7937 
54054.12019 508 -740 7884 
54208.99038 387 -769 7850 
54363.86058 586 -654 7861 
54518.73078 541 -662 7880 
54673.60097 515 -673 7790 
54828.47117 544 -777 7816 
54983.34136 439 -784 7918 
55138.21156 420 -695 7793 
55293.08175 650 -718 7926 
55447.95195 254 -873 7900 
55602.82215 627 -495 7683 
55757.69234 367 -888 7884 
55912.56254 556 -703 7865 
56067.43273 318 -788 8032 
56222.30293 515 -673 7790 
56377.17313 474 -695 7858 
56532.04332 583 -673 7930 
56686.91352 508 -792 7763 
56841.78371 451 -814 7911 
56996.65391 605 -703 7884 
57151.5241 417 -784 7869 
57306.3943 564 -755 7903 
57461.2645 560 -684 7884 
57616.13469 466 -758 8009 
57771.00489 515 -673 7790 
57925.87508 533 -706 7945 
58080.74528 424 -692 7763 
58235.61547 412 -725 7998 
58390.48567 616 -521 7709 
58545.35587 416 -799 7918 
58700.22606 375 -669 7816 
58855.09626 408 -710 7831 
59009.96645 469 -728 7854 
59164.83665 499 -651 7934 
59319.70684 515 -673 7790 
59474.57704 319 -658 7884 
59629.44724 296 -799 7975 
59784.31743 602 -551 7679 
59939.18763 530 -810 7842 
60094.05782 466 -621 7876 
60248.92802 485 -784 7858 
60403.79821 477 -647 7694 
60558.66841 444 -747 7820 
60713.53861 628 -577 7713 
60868.4088 323 -806 7800 
61023.279 495 -658 7770 
61178.14919 394 -732 7930 
61333.01939 506 -710 7804 
61487.88958 360 -995 8078 
61642.75978 616 -729 7907 
61797.62998 435 -640 7687 
61952.50017 514 -617 7820 
62107.37037 361 -799 8145 
62262.24056 538 -802 7887 
62417.11076 666 -754 7891 
62571.98095 342 -821 7842 
62726.85115 440 -643 7769 
62881.72135 530 -751 7879 
63036.59154 440 -755 7769 
63191.46174 428 -762 8008 
63346.33193 470 -736 7781 
63501.20213 556 -673 7902 
63656.07232 470 -658 7842 
63810.94252 327 -725 8006 
63965.81272 511 -725 7801 
64120.68291 357 -677 7877 
64275.55311 485 -677 7987 
64430.4233 425 -777 7846 
64585.2935 477 -644 7641 
64740.16369 342 -755 7998 
64895.03389 556 -692 7854 
65049.90409 556 -673 7902 
65204.77428 537 -788 7952 
65359.64448 386 -877 8055 
65514.51467 638 -599 7812 
65669.38487 514 -762 7972 
65824.25506 469 -728 8048 
65979.12526 665 -510 7759 
66133.99546 495 -721 7762 
66288.86565 522 -766 7846 
66443.73585 469 -695 7854 
66598.60604 548 -762 7956 
66753.47624 519 -658 7786 
66908.34643 364 -917 7968 
67063.21663 590 -610 8059 
67218.08683 312 -699 7877 
67372.95702 621 -788 7808 
67527.82722 361 -610 7918 
67682.69741 556 -773 7926 
67837.56761 564 -758 7766 
67992.4378 462 -677 7850 
68147.308 548 -762 7956 
68302.1782 613 -577 7652 
68457.04839 425 -836 7888 
68611.91859 545 -643 7850 
68766.78878 436 -710 7968 
68921.65898 628 -673 7755 
69076.52917 470 -706 7903 
69231.39937 492 -695 7820 
69386.26957 515 -792 7896 
69541.13976 481 -725 7926 
69696.00996 548 -762 7956 
69850.88015 450 -666 7831 
70005.75035 458 -644 7850 
70160.62054 412 -866 7812 
70315.49074 540 -677 7793 
70470.36094 435 -777 7797 
70625.23113 398 -773 8051 
70780.10133 661 -706 7790 
70934.97152 424 -562 7915 
71089.84172 537 -669 7884 
71244.71191 469 -669 7941 
71399.58211 530 -706 7782 
71554.45231 470 -736 7899 
71709.3225 583 -588 7804 
71864.1927 285 -803 7979 
72019.06289 590 -573 7843 
72173.93309 379 -806 7892 
72328.80328 485 -725 7725 
72483.67348 462 -736 7770 
72638.54368 447 -777 7789 
72793.41387 635 -632 7941 
72948.28407 455 -710 7899 
73103.15426 462 -695 7815 
73258.02446 398 -784 7895 
73412.89465 538 -618 7735 
73567.76485 511 -721 7910 
73722.63505 504 -754 7724 
73877.50524 688 -573 7838 
74032.37544 485 -606 7868 
74187.24563 473 -795 8088 
74342.11583 635 -632 7941 
74496.98602 414 -743 7983 
74651.85622 515 -625 7812 
74806.72642 609 -684 7766 
74961.59661 466 -884 7907 
75116.46681 458 -692 8024 
75271.337 466 -743 7812 
75426.2072 425 -769 7934 
75581.07739 458 -621 8013 
75735.94759 538 -736 7869 
75890.81779 538 -858 7918 
76045.68798 380 -836 8062 
76200.55818 444 -662 7982 
76355.42837 417 -662 7780 
76510.29857 312 -603 8024 
76665.16876 508 -758 7819 
76820.03896 300 -595 7849 
76974.90916 410 -814 7910 
77129.77935 470 -529 7693 
77284.64955 402 -858 7940 
77439.51974 402 -744 7921 
77594.38994 496 -721 7974 
77749.26013 639 -714 7678 
77904.13033 368 -751 7822 
78059.00053 553 -596 7922 
78213.87072 368 -806 7842 
78368.74092 545 -703 7925 
78523.61111 368 -766 7868 
78678.48131 481 -643 7860 
78833.3515 523 -647 8096 
78988.2217 402 -744 7921 
79143.0919 334 -684 7784 
79297.96209 428 -758 7925 
79452.83229 545 -581 7705 
79607.70248 481 -751 8008 
79762.57268 466 -769 7906 
79917.44287 519 -728 7868 
80072.31307 598 -710 7853 
80227.18327 447 -717 8016 
80382.05346 504 -725 8005 
80536.92366 421 -669 7800 
80691.79385 481 -817 7823 
80846.66405 421 -677 7968 
81001.53424 545 -728 7831 
81156.40444 432 -751 7816 
81311.27464 451 -773 7937 
81466.14483 508 -740 7884 
81621.01503 387 -769 7850 
81775.88522 586 -654 7861 
81930.75542 541 -662 7880 
82085.62561 515 -673 7790 
82240.49581 544 -777 7816 
82395.36601 439 -784 7918 
82550.2362 420 -695 7793 
82705.1064 650 -718 7926 
82859.97659 254 -873 7900 
83014.84679 627 -495 7683 
83169.71698 367 -888 7884 
83324.58718 556 -703 7865 
83479.45738 318 -788 8032 
83634.32757 515 -673 7790 
83789.19777 474 -695 7858 
83944.06796 583 -673 7930 
84098.93816 508 -792 7763 
84253.80835 451 -814 7911 
84408.67855 605 -703 7884 
84563.54875 417 -784 7869 
84718.41894 564 -755 7903 
84873.28914 560 -684 7884 
85028.15933 466 -758 8009 
85183.02953 515 -673 7790 
85337.89972 533 -706 7945 
85492.76992 424 -692 7763 
85647.64012 412 -725 7998 
85802.51031 616 -521 7709 
85957.38051 416 -799 7918 
86112.2507 375 -669 7816 
86267.1209 408 -710 7831 
86421.99109 469 -728 7854 
86576.86129 499 -651 7934 
86731.73149 515 -673 7790 
86886.60168 319 -658 7884 
87041.47188 296 -799 7975 
87196.34207 602 -551 7679 
87351.21227 530 -810 7842 
87506.08246 466 -621 7876 
87660.95266 485 -784 7858 
87815.82286 477 -647 7694 
87970.69305 444 -747 7820 
88125.56325 628 -577 7713 
88280.43344 323 -806 7800 
88435.30364 495 -658 7770 
88590.17383 394 -732 7930 
88745.04403 506 -710 7804 
88899.91423 360 -995 8078 
89054.78442 616 -729 7907 
89209.65462 435 -640 7687 
89364.52481 514 -617 7820 
89519.39501 361 -799 8145 
89674.2652 538 -802 7887 
89829.1354 666 -754 7891 
89984.0056 342 -821 7842 
90138.87579 440 -643 7769 
90293.74599 530 -751 7879 
90448.61618 440 -755 7769 
90603.48638 428 -762 8008 
90758.35657 470 -736 7781 
90913.22677 556 -673 7902 
91068.09697 470 -658 7842 
91222.96716 327 -725 8006 
91377.83736 511 -725 7801 
91532.70755 357 -677 7877 
91687.57775 485 -677 7987 
91842.44794 425 -777 7846 
91997.31814 477 -644 7641 
92152.18834 342 -755 7998 
92307.05853 556 -692 7854 
92461.92873 556 -673 7902 
92616.79892 537 -788 7952 
92771.66912 386 -877 8055 
92926.53932 638 -599 7812 
93081.40951 514 -762 7972 
93236.27971 469 -728 8048 
93391.1499 665 -510 7759 
93546.0201 495 -721 7762 
93700.89029 522 -766 7846 
93855.76049 469 -695 7854 
94010.63069 548 -762 7956 
94165.50088 519 -658 7786 
94320.37108 364 -917 7968 
94475.24127 590 -610 8059 
94630.11147 312 -699 7877 
94784.98166 621 -788 7808 
94939.85186 361 -610 7918 
95094.72206 556 -773 7926 
95249.59225 564 -758 7766 
95404.46245 462 -677 7850 
95559.33264 548 -762 7956 
95714.20284 613 -577 7652 
95869.07303 425 -836 7888 
96023.94323 545 -643 7850 
96178.81343 436 -710 7968 
96333.68362 628 -673 7755 
96488.55382 470 -706 7903 
96643.42401 492 -695 7820 
96798.29421 515 -792 7896 
96953.1644 481 -725 7926 
97108.0346 548 -762 7956 
97262.9048 450 -666 7831 
97417.77499 458 -644 7850 
97572.64519 412 -866 7812 
97727.51538 540 -677 7793 
97882.38558 435 -777 7797 
98037.25577 398 -773 8051 
98192.12597 661 -706 7790 
98346.99617 424 -562 7915 
98501.86636 537 -669 7884 
98656.73656 469 -669 7941 
98811.60675 530 -706 7782 
98966.47695 470 -736 7899 
99121.34714 583 -588 7804 
99276.21734 285 -803 7979 
99431.08754 590 -573 7843 
99585.95773 379 -806 7892 
99740.82793 485 -725 7725 
99895.69812 462 -736 7770 
100050.5683 447 -777 7789 
100205.4385 635 -632 7941 
100360.3087 455 -710 7899 
100515.1789 462 -695 7815 
100670.0491 398 -784 7895 
100824.9193 538 -618 7735 
100979.7895 511 -721 7910 
101134.6597 504 -754 7724 
101289.5299 688 -573 7838 
101444.4001 485 -606 7868 
101599.2703 473 -795 8088 
101754.1405 635 -632 7941 
101909.0107 414 -743 7983 
102063.8809 515 -625 7812 
102218.7511 609 -684 7766 
102373.6213 466 -884 7907 
102528.4914 458 -692 8024 
102683.3616 466 -743 7812 
102838.2318 425 -769 7934 
102993.102 458 -621 8013 
103147.9722 538 -736 7869 
103302.8424 538 -858 7918 
103457.7126 380 -836 8062 
103612.5828 444 -662 7982 
103767.453 417 -662 7780 
103922.3232 312 -603 8024 
104077.1934 508 -758 7819 
104232.0636 300 -595 7849 
104386.9338 410 -814 7910 
104541.804 470 -529 7693 
104696.6742 402 -858 7940 
104851.5444 402 -744 7921 
105006.4146 496 -721 7974 
105161.2848 639 -714 7678 
105316.155 368 -751 7822 
105471.0252 553 -596 7922 
105625.8954 368 -806 7842 
105780.7656 545 -703 7925 
105935.6358 368 -766 7868 
106090.506 481 -643 7860 
106245.3761 523 -647 8096 
106400.2463 402 -744 7921 
106555.1165 334 -684 7784 
106709.9867 428 -758 7925 
106864.8569 545 -581 7705 
107019.7271 481 -751 8008 
107174.5973 466 -769 7906 
107329.4675 519 -728 7868 
107484.3377 598 -710 7853 
107639.2079 447 -717 8016 
107794.0781 504 -725 8005 
107948.9483 421 -669 7800 
108103.8185 481 -817 7823 
108258.6887 421 -677 7968 
108413.5589 545 -728 7831 
108568.4291 432 -751 7816 
108723.2993 451 -773 7937 
108878.1695 508 -740 7884 
109033.0397 387 -769 7850 
109187.9099 586 -654 7861 
109342.7801 541 -662 7880 
109497.6503 515 -673 7790 
109652.5205 544 -777 7816 
109807.3906 439 -784 7918 
109962.2608 420 -695 7793 
110117.131 650 -718 7926 
110272.0012 254 -873 7900 
110426.8714 627 -495 7683 
110581.7416 367 -888 7884 
110736.6118 556 -703 7865 
110891.482 318 -788 8032 
111046.3522 515 -673 7790 
111201.2224 474 -695 7858 
111356.0926 583 -673 7930 
111510.9628 508 -792 7763 
111665.833 451 -814 7911 
111820.7032 605 -703 7884 
111975.5734 417 -784 7869 
112130.4436 564 -755 7903 
112285.3138 560 -684 7884 
112440.184 466 -758 8009 
112595.0542 515 -673 7790 
112749.9244 533 -706 7945 
112904.7946 424 -692 7763 
113059.6648 412 -725 7998 
113214.535 616 -521 7709 
113369.4052 416 -799 7918 
113524.2753 375 -669 7816 
113679.1455 408 -710 7831 
113834.0157 469 -728 7854 
113988.8859 499 -651 7934 
114143.7561 515 -673 7790 
114298.6263 319 -658 7884 
114453.4965 296 -799 7975 
114608.3667 602 -551 7679 
114763.2369 530 -810 7842 
114918.1071 466 -621 7876 
115072.9773 485 -784 7858 
115227.8475 477 -647 7694 
115382.7177 444 -747 7820 
115537.5879 628 -577 7713 
115692.4581 323 -806 7800 
115847.3283 495 -658 7770 
116002.1985 394 -732 7930 
116157.0687 506 -710 7804 
116311.9389 360 -995 8078 
116466.8091 616 -729 7907 
116621.6793 435 -640 7687 
116776.5495 514 -617 7820 
116931.4197 361 -799 8145 
117086.2898 538 -802 7887 
117241.16 666 -754 7891 
117396.0302 342 -821 7842 
117550.9004 440 -643 7769 
117705.7706 530 -751 7879 
117860.6408 440 -755 7769 
118015.511 428 -762 8008 
118170.3812 470 -736 7781 
118325.2514 556 -673 7902 
118480.1216 470 -658 7842 
118634.9918 327 -725 8006 
118789.862 511 -725 7801 
118944.7322 357 -677 7877 
119099.6024 485 -677 7987 
119254.4726 425 -777 7846 
119409.3428 477 -644 7641 
119564.213 342 -755 7998 
119719.0832 556 -692 7854 
119873.9534 556 -673 7902 
120028.8236 537 -788 7952 
120183.6938 386 -877 8055 
120338.564 638 -599 7812 
120493.4342 514 -762 7972 
120648.3043 469 -728 8048 
120803.1745 665 -510 7759 
120958.0447 495 -721 7762 
121112.9149 522 -766 7846 
121267.7851 469 -695 7854 
121422.6553 548 -762 7956 
121577.5255 519 -658 7786 
121732.3957 364 -917 7968 
121887.2659 590 -610 8059 
122042.1361 312 -699 7877 
122197.0063 621 -788 7808 
122351.8765 361 -610 7918 
122506.7467 556 -773 7926 
122661.6169 564 -758 7766 
122816.4871 462 -677 7850 
122971.3573 548 -762 7956 
123126.2275 613 -577 7652 
123281.0977 425 -836 7888 
123435.9679 545 -643 7850 
123590.8381 436 -710 7968 
123745.7083 628 -673 7755 
123900.5785 470 -706 7903 
124055.4487 492 -695 7820 
124210.3189 515 -792 7896 
124365.189 481 -725 7926 
124520.0592 548 -762 7956 
124674.9294 450 -666 7831 
124829.7996 458 -644 7850 
124984.6698 412 -866 7812 
125139.54 540 -677 7793 
125294.4102 435 -777 7797 
125449.2804 398 -773 8051 
125604.1506 661 -706 7790 
125759.0208 424 -562 7915 
125913.891 537 -669 7884 
126068.7612 469 -669 7941 
126223.6314 530 -706 7782 
126378.5016 470 -736 7899 
126533.3718 583 -588 7804 
126688.242 285 -803 7979 
126843.1122 590 -573 7843 
126997.9824 379 -806 7892 
127152.8526 485 -725 7725 
127307.7228 462 -736 7770 
127462.593 447 -777 7789 
127617.4632 635 -632 7941 
127772.3334 455 -710 7899 
127927.2035 462 -695 7815 
128082.0737 398 -784 7895 
128236.9439 538 -618 7735 
128391.8141 511 -721 7910 
128546.6843 504 -754 7724 
128701.5545 688 -573 7838 
128856.4247 485 -606 7868 
129011.2949 473 -795 8088 
129166.1651 635 -632 7941 
129321.0353 414 -743 7983 
129475.9055 515 -625 7812 
129630.7757 609 -684 7766 
129785.6459 466 -884 7907 
129940.5161 458 -692 8024 
130095.3863 466 -743 7812 
130250.2565 425 -769 7934 
130405.1267 458 -621 8013 
130559.9969 538 -736 7869 
130714.8671 538 -858 7918 
130869.7373 380 -836 8062 
131024.6075 444 -662 7982 
131179.4777 417 -662 7780 
131334.3479 312 -603 8024 
131489.218 508 -758 7819 
131644.0882 300 -595 7849 
131798.9584 410 -814 7910 
131953.8286 470 -529 7693 
132108.6988 402 -858 7940 
132263.569 402 -744 7921 
132418.4392 496 -721 7974 
132573.3094 639 -714 7678 
132728.1796 368 -751 7822 
132883.0498 553 -596 7922 
133037.92 368 -806 7842 
133192.7902 545 -703 7925 
133347.6604 368 -766 7868 
133502.5306 481 -643 7860 
133657.4008 523 -647 8096 
133812.271 402 -744 7921 
133967.1412 334 -684 7784 
134122.0114 428 -758 7925 
134276.8816 545 -581 7705 
134431.7518 481 -751 8008 
134586.622 466 -769 7906 
134741.4922 519 -728 7868 
134896.3624 598 -710 7853 
135051.2326 447 -717 8016 
135206.1027 504 -725 8005 
135360.9729 421 -669 7800 
135515.8431 481 -817 7823 
135670.7133 421 -677 7968 
135825.5835 545 -728 7831 
135980.4537 432 -751 7816 
136135.3239 451 -773 7937 
136290.1941 508 -740 7884 
136445.0643 387 -769 7850 
136599.9345 586 -654 7861 
136754.8047 541 -662 7880 
136909.6749 515 -673 7790 
137064.5451 544 -777 7816 
137219.4153 439 -784 7918 
137374.2855 420 -695 7793 
137529.1557 650 -718 7926 
137684.0259 254 -873 7900 
137838.8961 627 -495 7683 
137993.7663 367 -888 7884 
138148.6365 556 -703 7865 
138303.5067 318 -788 8032 
138458.3769 515 -673 7790 
138613.2471 474 -695 7858 
138768.1172 583 -673 7930 
138922.9874 508 -792 7763 
139077.8576 451 -814 7911 
139232.7278 605 -703 7884 
139387.598 417 -784 7869 
139542.4682 564 -755 7903 
139697.3384 560 -684 7884 
139852.2086 466 -758 8009 
140007.0788 515 -673 7790 
140161.949 533 -706 7945 
140316.8192 424 -692 7763 
140471.6894 412 -725 7998 
140626.5596 616 -521 7709 
140781.4298 416 -799 7918 
140936.3 375 -669 7816 
141091.1702 408 -710 7831 
141246.0404 469 -728 7854 
141400.9106 499 -651 7934 
141555.7808 515 -673 7790 
141710.651 319 -658 7884 
141865.5212 296 -799 7975 
142020.3914 602 -551 7679 
142175.2616 530 -810 7842 
142330.1317 466 -621 7876 
142485.0019 485 -784 7858 
142639.8721 477 -647 7694 
142794.7423 444 -747 7820 
142949.6125 628 -577 7713 
143104.4827 323 -806 7800 
143259.3529 495 -658 7770 
143414.2231 394 -732 7930 
143569.0933 506 -710 7804 
143723.9635 360 -995 8078 
143878.8337 616 -729 7907 
144033.7039 435 -640 7687 
144188.5741 514 -617 7820 
144343.4443 361 -799 8145 
144498.3145 538 -802 7887 
144653.1847 666 -754 7891 
144808.0549 342 -821 7842 
144962.9251 440 -643 7769 
145117.7953 530 -751 7879 
145272.6655 440 -755 7769 
145427.5357 428 -762 8008 
145582.4059 470 -736 7781 
145737.2761 556 -673 7902 
145892.1463 470 -658 7842 
146047.0164 327 -725 8006 
146201.8866 511 -725 7801 
146356.7568 357 -677 7877 
146511.627 485 -677 7987 
146666.4972 425 -777 7846 
146821.3674 477 -644 7641 
146976.2376 342 -755 7998 
147131.1078 556 -692 7854 
147285.978 556 -673 7902 
147440.8482 537 -788 7952 
147595.7184 386 -877 8055 
147750.5886 638 -599 7812 
147905.4588 514 -762 7972 
148060.329 469 -728 8048 
148215.1992 665 -510 7759 
148370.0694 495 -721 7762 
148524.9396 522 -766 7846 
148679.8098 469 -695 7854 
148834.68 548 -762 7956 
148989.5502 519 -658 7786 
149144.4204 364 -917 7968 
149299.2906 590 -610 8059 
149454.1608 312 -699 7877 
149609.0309 621 -788 7808 
149763.9011 361 -610 7918 
149918.7713 556 -773 7926 
150073.6415 564 -758 7766 
150228.5117 462 -677 7850 
150383.3819 548 -762 7956 
150538.2521 613 -577 7652 
150693.1223 425 -836 7888 
150847.9925 545 -643 7850 
151002.8627 436 -710 7968 
151157.7329 628 -673 7755 
151312.6031 470 -706 7903 
151467.4733 492 -695 7820 
151622.3435 515 -792 7896 
151777.2137 481 -725 7926 
151932.0839 548 -762 7956 
152086.9541 450 -666 7831 
152241.8243 458 -644 7850 
152396.6945 412 -866 7812 
152551.5647 540 -677 7793 
152706.4349 435 -777 7797 
152861.3051 398 -773 8051 
153016.1753 661 -706 7790 
153171.0455 424 -562 7915 
153325.9156 537 -669 7884 
153480.7858 469 -669 7941 
153635.656 530 -706 7782 
153790.5262 470 -736 7899 
153945.3964 583 -588 7804 
154100.2666 285 -803 7979 
154255.1368 590 -573 7843 
154410.007 379 -806 7892 
154564.8772 485 -725 7725 
154719.7474 462 -736 7770 
154874.6176 447 -777 7789 
155029.4878 635 -632 7941 
155184.358 455 -710 7899 
155339.2282 462 -695 7815 
155494.0984 398 -784 7895 
155648.9686 538 -618 7735 
155803.8388 511 -721 7910 
155958.709 504 -754 7724 
156113.5792 688 -573 7838 
156268.4494 485 -606 7868 
156423.3196 473 -795 8088 
156578.1898 635 -632 7941 
156733.06 414 -743 7983 
156887.9301 515 -625 7812 
157042.8003 609 -684 7766 
157197.6705 466 -884 7907 
157352.5407 458 -692 8024 
157507.4109 466 -743 7812 
157662.2811 425 -769 7934 
157817.1513 458 -621 8013 
157972.0215 538 -736 7869 
158126.8917 538 -858 7918 
158281.7619 380 -836 8062 
158436.6321 444 -662 7982 
158591.5023 417 -662 7780 
158746.3725 312 -603 8024 
158901.2427 508 -758 7819 
159056.1129 300 -595 7849 
159210.9831 410 -814 7910 
159365.8533 470 -529 7693 
159520.7235 402 -858 7940 
159675.5937 402 -744 7921 
159830.4639 496 -721 7974 
159985.3341 639 -714 7678 
160140.2043 368 -751 7822 
160295.0745 553 -596 7922 
160449.9446 368 -806 7842 
160604.8148 545 -703 7925 
160759.685 368 -766 7868 
160914.5552 481 -643 7860 
161069.4254 523 -647 8096 
161224.2956 402 -744 7921 
161379.1658 334 -684 7784 
161534.036 428 -758 7925 
161688.9062 545 -581 7705 
161843.7764 481 -751 8008 
161998.6466 466 -769 7906 
162153.5168 519 -728 7868 
162308.387 598 -710 7853 
162463.2572 447 -717 8016 
162618.1274 504 -725 8005 
162772.9976 421 -669 7800 
162927.8678 481 -817 7823 
163082.738 421 -677 7968 
163237.6082 545 -728 7831 
163392.4784 432 -751 7816 
163547.3486 451 -773 7937 
163702.2188 508 -740 7884 
163857.089 387 -769 7850 
164011.9592 586 -654 7861 
164166.8293 541 -662 7880 
164321.6995 515 -673 7790 
164476.5697 544 -777 7816 
164631.4399 439 -784 7918 
164786.3101 420 -695 7793 
164941.1803 650 -718 7926 
165096.0505 254 -873 7900 
165250.9207 627 -495 7683 
165405.7909 367 -888 7884 
165560.6611 556 -703 7865 
165715.5313 318 -788 8032 
165870.4015 515 -673 7790 
166025.2717 474 -695 7858 
166180.1419 583 -673 7930 
166335.0121 508 -792 7763 
166489.8823 451 -814 7911 
166644.7525 605 -703 7884 
166799.6227 417 -784 7869 
166954.4929 564 -755 7903 
167109.3631 560 -684 7884 
167264.2333 466 -758 8009 
167419.1035 515 -673 7790 
167573.9737 533 -706 7945 
167728.8438 424 -692 7763 
167883.714 412 -725 7998 
168038.5842 616 -521 7709 
168193.4544 416 -799 7918 
168348.3246 375 -669 7816 
168503.1948 408 -710 7831 
168658.065 469 -728 7854 
168812.9352 499 -651 7934 
168967.8054 515 -673 7790 
169122.6756 319 -658 7884 
169277.5458 296 -799 7975 
169432.416 602 -551 7679 
169587.2862 530 -810 7842 
169742.1564 466 -621 7876 
169897.0266 485 -784 7858 
170051.8968 477 -647 7694 
170206.767 444 -747 7820 
170361.6372 628 -577 7713 
170516.5074 323 -806 7800 
170671.3776 495 -658 7770 
170826.2478 394 -732 7930 
170981.118 506 -710 7804 
171135.9882 360 -995 8078 
171290.8583 616 -729 7907 
171445.7285 435 -640 7687 
171600.5987 514 -617 7820 
171755.4689 361 -799 8145 
171910.3391 538 -802 7887 
172065.2093 666 -754 7891 
172220.0795 342 -821 7842 
172374.9497 440 -643 7769 
172529.8199 530 -751 7879 
172684.6901 440 -755 7769 
172839.5603 428 -762 8008 
172994.4305 470 -736 7781 
173149.3007 556 -673 7902 
173304.1709 470 -658 7842 
173459.0411 327 -725 8006 
173613.9113 511 -725 7801 
173768.7815 357 -677 7877 
173923.6517 485 -677 7987 
174078.5219 425 -777 7846 
174233.3921 477 -644 7641 
174388.2623 342 -755 7998 
174543.1325 556 -692 7854 
174698.0027 556 -673 7902 
174852.8729 537 -788 7952 
175007.743 386 -877 8055 
175162.6132 638 -599 7812 
175317.4834 514 -762 7972 
175472.3536 469 -728 8048 
175627.2238 665 -510 7759 
175782.094 495 -721 7762 
175936.9642 522 -766 7846 
176091.8344 469 -695 7854 
176246.7046 548 -762 7956 
176401.5748 519 -658 7786 
176556.445 364 -917 7968 
176711.3152 590 -610 8059 
176866.1854 312 -699 7877 
177021.0556 621 -788 7808 
177175.9258 361 -610 7918 
177330.796 556 -773 7926 
177485.6662 564 -758 7766 
177640.5364 462 -677 7850 
177795.4066 548 -762 7956 
177950.2768 613 -577 7652 
178105.147 425 -836 7888 
178260.0172 545 -643 7850 
178414.8874 436 -710 7968 
178569.7575 628 -673 7755 
178724.6277 470 -706 7903 
178879.4979 492 -695 7820 
179034.3681 515 -792 7896 
179189.2383 481 -725 7926 
179344.1085 548 -762 7956 
179498.9787 450 -666 7831 
179653.8489 458 -644 7850 
179808.7191 412 -866 7812 
179963.5893 540 -677 7793 
180118.4595 435 -777 7797 
180273.3297 398 -773 8051 
180428.1999 661 -706 7790 
180583.0701 424 -562 7915 
180737.9403 537 -669 7884 
180892.8105 469 -669 7941 
181047.6807 530 -706 7782 
181202.5509 470 -736 7899 
181357.4211 583 -588 7804 
181512.2913 285 -803 7979 
181667.1615 590 -573 7843 
181822.0317 379 -806 7892 
181976.9019 485 -725 7725 
182131.772 462 -736 7770 
182286.6422 447 -777 7789 
182441.5124 635 -632 7941 
182596.3826 455 -710 7899 
182751.2528 462 -695 7815 
182906.123 398 -784 7895 
183060.9932 538 -618 7735 
183215.8634 511 -721 7910 
183370.7336 504 -754 7724 
183525.6038 688 -573 7838 
183680.474 485 -606 7868 
183835.3442 473 -795 8088 
183990.2144 635 -632 7941 
184145.0846 414 -743 7983 
184299.9548 515 -625 7812 
184454.825 609 -684 7766 
184609.6952 466 -884 7907 
184764.5654 458 -692 8024 
184919.4356 466 -743 7812 
185074.3058 425 -769 7934 
185229.176 458 -621 8013 
185384.0462 538 -736 7869 
185538.9164 538 -858 7918 
185693.7866 380 -836 8062 
185848.6567 444 -662 7982 
186003.5269 417 -662 7780 
186158.3971 312 -603 8024 
186313.2673 508 -758 7819 
186468.1375 300 -595 7849 
186623.0077 410 -814 7910 
186777.8779 470 -529 7693 
186932.7481 402 -858 7940 
187087.6183 402 -744 7921 
187242.4885 496 -721 7974 
187397.3587 639 -714 7678 
187552.2289 368 -751 7822 
187707.0991 553 -596 7922 
187861.9693 368 -806 7842 
188016.8395 545 -703 7925 
188171.7097 368 -766 7868 
188326.5799 481 -643 7860 
188481.4501 523 -647 8096 
188636.3203 402 -744 7921 
188791.1905 334 -684 7784 
188946.0607 428 -758 7925 
189100.9309 545 -581 7705 
189255.8011 481 -751 8008 
189410.6712 466 -769 7906 
189565.5414 519 -728 7868 
189720.4116 598 -710 7853 
189875.2818 447 -717 8016 
190030.152 504 -725 8005 
190185.0222 421 -669 7800 
190339.8924 481 -817 7823 
190494.7626 421 -677 7968 
190649.6328 545 -728 7831 
190804.503 432 -751 7816 
190959.3732 451 -773 7937 
191114.2434 508 -740 7884 
191269.1136 387 -769 7850 
191423.9838 586 -654 7861 
191578.854 541 -662 7880 
191733.7242 515 -673 7790 
191888.5944 544 -777 7816 
192043.4646 439 -784 7918 
192198.3348 420 -695 7793 
192353.205 650 -718 7926 
192508.0752 254 -873 7900 
192662.9454 627 -495 7683 
192817.8156 367 -888 7884 
192972.6858 556 -703 7865 
193127.5559 318 -788 8032 
193282.4261 515 -673 7790 
193437.2963 474 -695 7858 
193592.1665 583 -673 7930 
193747.0367 508 -792 7763 
193901.9069 451 -814 7911 
194056.7771 605 -703 7884 
194211.6473 417 -784 7869 
194366.5175 564 -755 7903 
194521.3877 560 -684 7884 
194676.2579 466 -758 8009 
194831.1281 515 -673 7790 
194985.9983 533 -706 7945 
195140.8685 424 -692 7763 
195295.7387 412 -725 7998 
195450.6089 616 -521 7709 
195605.4791 416 -799 7918 
195760.3493 375 -669 7816 
195915.2195 408 -710 7831 
196070.0897 469 -728 7854 
196224.9599 499 -651 7934 
196379.8301 515 -673 7790 
196534.7003 319 -658 7884 
196689.5704 296 -799 7975 
196844.4406 602 -551 7679 
196999.3108 530 -810 7842 
197154.181 466 -621 7876 
197309.0512 485 -784 7858 
197463.9214 477 -647 7694 
197618.7916 444 -747 7820 
197773.6618 628 -577 7713 
197928.532 323 -806 7800 
198083.4022 495 -658 7770 
198238.2724 394 -732 7930 
198393.1426 506 -710 7804 
198548.0128 360 -995 8078 
198702.883 616 -729 7907 
198857.7532 435 -640 7687 
199012.6234 514 -617 7820 
199167.4936 361 -799 8145 
199322.3638 538 -802 7887 
199477.234 666 -754 7891 
199632.1042 342 -821 7842 
199786.9744 440 -643 7769 
199941.8446 530 -751 7879 
200096.7148 440 -755 7769 
200251.5849 428 -762 8008 
200406.4551 470 -736 7781 
200561.3253 556 -673 7902 
200716.1955 470 -658 7842 
200871.0657 327 -725 8006 
201025.9359 511 -725 7801 
201180.8061 357 -677 7877 
201335.6763 485 -677 7987 
201490.5465 425 -777 7846 
201645.4167 477 -644 7641 
201800.2869 342 -755 7998 
201955.1571 556 -692 7854 
202110.0273 556 -673 7902 
202264.8975 537 -788 7952 
202419.7677 386 -877 8055 
202574.6379 638 -599 7812 
202729.5081 514 -762 7972 
202884.3783 469 -728 8048 
203039.2485 665 -510 7759 
203194.1187 495 -721 7762 
203348.9889 522 -766 7846 
203503.8591 469 -695 7854 
203658.7293 548 -762 7956 
203813.5995 519 -658 7786 
203968.4696 364 -917 7968 
204123.3398 590 -610 8059 
204278.21 312 -699 7877 
204433.0802 621 -788 7808 
204587.9504 361 -610 7918 
204742.8206 556 -773 7926 
204897.6908 564 -758 7766 
205052.561 462 -677 7850 
205207.4312 548 -762 7956 
205362.3014 613 -577 7652 
205517.1716 425 -836 7888 
205672.0418 545 -643 7850 
205826.912 436 -710 7968 
205981.7822 628 -673 7755 
206136.6524 470 -706 7903 
206291.5226 492 -695 7820 
206446.3928 515 -792 7896 
206601.263 481 -725 7926 
206756.1332 548 -762 7956 
206911.0034 450 -666 7831 
207065.8736 458 -644 7850 
207220.7438 412 -866 7812 
207375.614 540 -677 7793 
207530.4841 435 -777 7797 
207685.3543 398 -773 8051 
207840.2245 661 -706 7790 
207995.0947 424 -562 7915 
208149.9649 537 -669 7884 
208304.8351 469 -669 7941 
208459.7053 530 -706 7782 
208614.5755 470 -736 7899 
208769.4457 583 -588 7804 
208924.3159 285 -803 7979 
209079.1861 590 -573 7843 
209234.0563 379 -806 7892 
209388.9265 485 -725 7725 
209543.7967 462 -736 7770 
209698.6669 447 -777 7789 
209853.5371 635 -632 7941 
210008.4073 455 -710 7899 
210163.2775 462 -695 7815 
210318.1477 398 -784 7895 
210473.0179 538 -618 7735 
210627.8881 511 -721 7910 
210782.7583 504 -754 7724 
210937.6285 688 -573 7838 
211092.4986 485 -606 7868 
211247.3688 473 -795 8088 
211402.239 635 -632 7941 
211557.1092 414 -743 7983 
211711.9794 515 -625 7812 
211866.8496 609 -684 7766 
212021.7198 466 -884 7907 
212176.59 458 -692 8024 
212331.4602 466 -743 7812 
212486.3304 425 -769 7934 
212641.2006 458 -621 8013 
212796.0708 538 -736 7869 
212950.941 538 -858 7918 
213105.8112 380 -836 8062 
213260.6814 444 -662 7982 
213415.5516 417 -662 7780 
213570.4218 312 -603 8024 
213725.292 508 -758 7819 
213880.1622 300 -595 7849 
214035.0324 410 -814 7910 
214189.9026 470 -529 7693 
214344.7728 402 -858 7940 
214499.643 402 -744 7921 
214654.5132 496 -721 7974 
214809.3833 639 -714 7678 
214964.2535 368 -751 7822 
215119.1237 553 -596 7922 
215273.9939 368 -806 7842 
215428.8641 545 -703 7925 
215583.7343 368 -766 7868 
215738.6045 481 -643 7860 
215893.4747 523 -647 8096 
216048.3449 402 -744 7921 
216203.2151 334 -684 7784 
216358.0853 428 -758 7925 
216512.9555 545 -581 7705 
216667.8257 481 -751 8008 
216822.6959 466 -769 7906 
216977.5661 519 -728 7868 
217132.4363 598 -710 7853 
217287.3065 447 -717 8016 
217442.1767 504 -725 8005 
217597.0469 421 -669 7800 
217751.9171 481 -817 7823 
217906.7873 421 -677 7968 
218061.6575 545 -728 7831 
218216.5277 432 -751 7816 
218371.3978 451 -773 7937 
218526.268 508 -740 7884 
218681.1382 387 -769 7850 
218836.0084 586 -654 7861 
218990.8786 541 -662 7880 
219145.7488 515 -673 7790 
219300.619 544 -777 7816 
219455.4892 439 -784 7918 
219610.3594 420 -695 7793 
219765.2296 650 -718 7926 
219920.0998 254 -873 7900 
220074.97 627 -495 7683 
220229.8402 367 -888 7884 
220384.7104 556 -703 7865 
220539.5806 318 -788 8032 
220694.4508 515 -673 7790 
220849.321 474 -695 7858 
221004.1912 583 -673 7930 
221159.0614 508 -792 7763 
221313.9316 451 -814 7911 
221468.8018 605 -703 7884 
221623.672 417 -784 7869 
221778.5422 564 -755 7903 
221933.4124 560 -684 7884 
222088.2825 466 -758 8009 
222243.1527 515 -673 7790 
222398.0229 533 -706 7945 
222552.8931 424 -692 7763 
222707.7633 412 -725 7998 
222862.6335 616 -521 7709 
223017.5037 416 -799 7918 
223172.3739 375 -669 7816 
223327.2441 408 -710 7831 
223482.1143 469 -728 7854 
223636.9845 499 -651 7934 
223791.8547 515 -673 7790 
223946.7249 319 -658 7884 
224101.5951 296 -799 7975 
224256.4653 602 -551 7679 
224411.3355 530 -810 7842 
224566.2057 466 -621 7876 
224721.0759 485 -784 7858 
224875.9461 477 -647 7694 
225030.8163 444 -747 7820 
225185.6865 628 -577 7713 
225340.5567 323 -806 7800 
225495.4269 495 -658 7770 
225650.297 394 -732 7930 
225805.1672 506 -710 7804 
225960.0374 360 -995 8078 
226114.9076 616 -729 7907 
226269.7778 435 -640 7687 
226424.648 514 -617 7820 
226579.5182 361 -799 8145 
226734.3884 538 -802 7887 
226889.2586 666 -754 7891 
227044.1288 342 -821 7842 
227198.999 440 -643 7769 
227353.8692 530 -751 7879 
227508.7394 440 -755 7769 
227663.6096 428 -762 8008 
227818.4798 470 -736 7781 
227973.35 556 -673 7902 
228128.2202 470 -658 7842 
228283.0904 327 -725 8006 
228437.9606 511 -725 7801 
228592.8308 357 -677 7877 
228747.701 485 -677 7987 
228902.5712 425 -777 7846 
229057.4414 477 -644 7641 
229212.3115 342 -755 7998 
229367.1817 556 -692 7854 
229522.0519 556 -673 7902 
229676.9221 537 -788 7952 
229831.7923 386 -877 8055 
229986.6625 638 -599 7812 
230141.5327 514 -762 7972 
230296.4029 469 -728 8048 
230451.2731 665 -510 7759 
230606.1433 495 -721 7762 
230761.0135 522 -766 7846 
230915.8837 469 -695 7854 
231070.7539 548 -762 7956 
231225.6241 519 -658 7786 
231380.4943 364 -917 7968 
231535.3645 590 -610 8059 
231690.2347 312 -699 7877 
231845.1049 621 -788 7808 
231999.9751 361 -610 7918 
232154.8453 556 -773 7926 
232309.7155 564 -758 7766 
232464.5857 462 -677 7850 
232619.4559 548 -762 7956 
232774.3261 613 -577 7652 
232929.1962 425 -836 7888 
233084.0664 545 -643 7850 
233238.9366 436 -710 7968 
233393.8068 628 -673 7755 
233548.677 470 -706 7903 
233703.5472 492 -695 7820 
233858.4174 515 -792 7896 
234013.2876 481 -725 7926 
234168.1578 548 -762 7956 
234323.028 450 -666 7831 
234477.8982 458 -644 7850 
234632.7684 412 -866 7812 
234787.6386 540 -677 7793 
234942.5088 435 -777 7797 
235097.379 398 -773 8051 
235252.2492 661 -706 7790 
235407.1194 424 -562 7915 
235561.9896 537 -669 7884 
235716.8598 469 -669 7941 
235871.73 530 -706 7782 
236026.6002 470 -736 7899 
236181.4704 583 -588 7804 
236336.3406 285 -803 7979 
236491.2107 590 -573 7843 
236646.0809 379 -806 7892 
236800.9511 485 -725 7725 
236955.8213 462 -736 7770 
237110.6915 447 -777 7789 
237265.5617 635 -632 7941 
237420.4319 455 -710 7899 
237575.3021 462 -695 7815 
237730.1723 398 -784 7895 
237885.0425 538 -618 7735 
238039.9127 511 -721 7910 
238194.7829 504 -754 7724 
238349.6531 688 -573 7838 
238504.5233 485 -606 7868 
238659.3935 473 -795 8088 
238814.2637 635 -632 7941 
238969.1339 414 -743 7983 
239124.0041 515 -625 7812 
239278.8743 609 -684 7766 
239433.7445 466 -884 7907 
239588.6147 458 -692 8024 
239743.4849 466 -743 7812 
239898.3551 425 -769 7934 
240053.2252 458 -621 8013 
240208.0954 538 -736 7869 
240362.9656 538 -858 7918 
240517.8358 380 -836 8062 
240672.706 444 -662 7982 
240827.5762 417 -662 7780 
240982.4464 312 -603 8024 
241137.3166 508 -758 7819 
241292.1868 300 -595 7849 
241447.057 410 -814 7910 
241601.9272 470 -529 7693 
241756.7974 402 -858 7940 
241911.6676 402 -744 7921 
242066.5378 496 -721 7974 
242221.408 639 -714 7678 
242376.2782 368 -751 7822 
242531.1484 553 -596 7922 
242686.0186 368 -806 7842 
242840.8888 545 -703 7925 
242995.759 368 -766 7868 
243150.6292 481 -643 7860 
243305.4994 523 -647 8096 
243460.3696 402 -744 7921 
243615.2398 334 -684 7784 
243770.1099 428 -758 7925 
243924.9801 545 -581 7705 
244079.8503 481 -751 8008 
244234.7205 466 -769 7906 
244389.5907 519 -728 7868 
244544.4609 598 -710 7853 
244699.3311 447 -717 8016 
244854.2013 504 -725 8005 
245009.0715 421 -669 7800 
245163.9417 481 -817 7823 
245318.8119 421 -677 7968 
245473.6821 545 -728 7831 
245628.5523 432 -751 7816 
245783.4225 451 -773 7937 
245938.2927 508 -740 7884 
246093.1629 387 -769 7850 
246248.0331 586 -654 7861 
246402.9033 541 -662 7880 
246557.7735 515 -673 7790 
246712.6437 544 -777 7816 
246867.5139 439 -784 7918 
247022.3841 420 -695 7793 
247177.2543 650 -718 7926 
247332.1244 254 -873 7900 
247486.9946 627 -495 7683 
247641.8648 367 -888 7884 
247796.735 556 -703 7865 
247951.6052 318 -788 8032 
248106.4754 515 -673 7790 
248261.3456 474 -695 7858 
248416.2158 583 -673 7930 
248571.086 508 -792 7763 
248725.9562 451 -814 7911 
248880.8264 605 -703 7884 
249035.6966 417 -784 7869 
249190.5668 564 -755 7903 
249345.437 560 -684 7884 
249500.3072 466 -758 8009 
249655.1774 515 -673 7790 
249810.0476 533 -706 7945 
249964.9178 424 -692 7763 
250119.788 412 -725 7998 
250274.6582 616 -521 7709 
250429.5284 416 -799 7918 
250584.3986 375 -669 7816 
250739.2688 408 -710 7831 
250894.1389 469 -728 7854 
251049.0091 499 -651 7934 
251203.8793 515 -673 7790 
251358.7495 319 -658 7884 
251513.6197 296 -799 7975 
251668.4899 602 -551 7679 
251823.3601 530 -810 7842 
251978.2303 466 -621 7876 
252133.1005 485 -784 7858 
252287.9707 477 -647 7694 
252442.8409 444 -747 7820 
252597.7111 628 -577 7713 
252752.5813 323 -806 7800 
252907.4515 495 -658 7770 
253062.3217 394 -732 7930 
253217.1919 506 -710 7804 
253372.0621 360 -995 8078 
253526.9323 616 -729 7907 
253681.8025 435 -640 7687 
253836.6727 514 -617 7820 
253991.5429 361 -799 8145 
254146.4131 538 -802 7887 
254301.2833 666 -754 7891 
254456.1535 342 -821 7842 
254611.0236 440 -643 7769 
254765.8938 530 -751 7879 
254920.764 440 -755 7769 
255075.6342 428 -762 8008 
255230.5044 470 -736 7781 
255385.3746 556 -673 7902 
255540.2448 470 -658 7842 
255695.115 327 -725 8006 
255849.9852 511 -725 7801 
256004.8554 357 -677 7877 
256159.7256 485 -677 7987 
256314.5958 425 -777 7846 
256469.466 477 -644 7641 
256624.3362 342 -755 7998 
256779.2064 556 -692 7854 
256934.0766 556 -673 7902 
257088.9468 537 -788 7952 
257243.817 386 -877 8055 
257398.6872 638 -599 7812 
257553.5574 514 -762 7972 
257708.4276 469 -728 8048 
257863.2978 665 -510 7759 
258018.168 495 -721 7762 
258173.0381 522 -766 7846 
258327.9083 469 -695 7854 
258482.7785 548 -762 7956 
258637.6487 519 -658 7786 
258792.5189 364 -917 7968 
258947.3891 590 -610 8059 
259102.2593 312 -699 7877 
259257.1295 621 -788 7808 
259411.9997 361 -610 7918 
259566.8699 556 -773 7926 
259721.7401 564 -758 7766 
259876.6103 462 -677 7850 
260031.4805 548 -762 7956 
260186.3507 613 -577 7652 
260341.2209 425 -836 7888 
260496.0911 545 -643 7850 
260650.9613 436 -710 7968 
260805.8315 628 -673 7755 
260960.7017 470 -706 7903 
261115.5719 492 -695 7820 
261270.4421 515 -792 7896 
261425.3123 481 -725 7926 
261580.1825 548 -762 7956 
261735.0527 450 -666 7831 
261889.9228 458 -644 7850 
262044.793 412 -866 7812 
262199.6632 540 -677 7793 
262354.5334 435 -777 7797 
262509.4036 398 -773 8051 
262664.2738 661 -706 7790 
262819.144 424 -562 7915 
262974.0142 537 -669 7884 
263128.8844 469 -669 7941 
263283.7546 530 -706 7782 
263438.6248 470 -736 7899 
263593.495 583 -588 7804 
263748.3652 285 -803 7979 
263903.2354 590 -573 7843 
264058.1056 379 -806 7892 
264212.9758 485 -725 7725 
264367.846 462 -736 7770 
264522.7162 447 -777 7789 
264677.5864 635 -632 7941 
264832.4566 455 -710 7899 
264987.3268 462 -695 7815 
265142.197 398 -784 7895 
265297.0672 538 -618 7735 
265451.9373 511 -721 7910 
265606.8075 504 -754 7724 
265761.6777 688 -573 7838 
265916.5479 485 -606 7868 
266071.4181 473 -795 8088 
266226.2883 635 -632 7941 
266381.1585 414 -743 7983 
266536.0287 515 -625 7812 
266690.8989 609 -684 7766 
266845.7691 466 -884 7907 
267000.6393 458 -692 8024 
267155.5095 466 -743 7812 
267310.3797 425 -769 7934 
267465.2499 458 -621 8013 
267620.1201 538 -736 7869 
267774.9903 538 -858 7918 
267929.8605 380 -836 8062 
268084.7307 444 -662 7982 
268239.6009 417 -662 7780 
268394.4711 312 -603 8024 
268549.3413 508 -758 7819 
268704.2115 300 -595 7849 
268859.0817 410 -814 7910 
269013.9518 470 -529 7693 
269168.822 402 -858 7940 
269323.6922 402 -744 7921 
269478.5624 496 -721 7974 
269633.4326 639 -714 7678 
269788.3028 368 -751 7822 
269943.173 553 -596 7922 
270098.0432 368 -806 7842 
270252.9134 545 -703 7925 
270407.7836 368 -766 7868 
270562.6538 481 -643 7860 
270717.524 523 -647 8096 
270872.3942 402 -744 7921 
271027.2644 334 -684 7784 
271182.1346 428 -758 7925 
271337.0048 545 -581 7705 
271491.875 481 -751 8008 
271646.7452 466 -769 7906 
271801.6154 519 -728 7868 
271956.4856 598 -710 7853 
272111.3558 447 -717 8016 
272266.226 504 -725 8005 
272421.0962 421 -669 7800 
272575.9664 481 -817 7823 
272730.8365 421 -677 7968 
272885.7067 545 -728 7831 
273040.5769 432 -751 7816 
273195.4471 451 -773 7937 
273350.3173 508 -740 7884 
273505.1875 387 -769 7850 
273660.0577 586 -654 7861 
273814.9279 541 -662 7880 
273969.7981 515 -673 7790 
274124.6683 544 -777 7816 
274279.5385 439 -784 7918 
274434.4087 420 -695 7793 
274589.2789 650 -718 7926 
274744.1491 254 -873 7900 
274899.0193 627 -495 7683 
275053.8895 367 -888 7884 
275208.7597 556 -703 7865 
275363.6299 318 -788 8032 
275518.5001 515 -673 7790 
275673.3703 474 -695 7858 
275828.2405 583 -673 7930 
275983.1107 508 -792 7763 
276137.9809 451 -814 7911 
276292.851 605 -703 7884 
276447.7212 417 -784 7869 
276602.5914 564 -755 7903 
276757.4616 560 -684 7884 
276912.3318 466 -758 8009 
277067.202 515 -673 7790 
277222.0722 533 -706 7945 
277376.9424 424 -692 7763 
277531.8126 412 -725 7998 
277686.6828 616 -521 7709 
277841.553 416 -799 7918 
277996.4232 375 -669 7816 
278151.2934 408 -710 7831 
278306.1636 469 -728 7854 
278461.0338 499 -651 7934 
278615.904 515 -673 7790 
278770.7742 319 -658 7884 
278925.6444 296 -799 7975 
279080.5146 602 -551 7679 
279235.3848 530 -810 7842 
279390.255 466 -621 7876 
279545.1252 485 -784 7858 
279699.9954 477 -647 7694 
279854.8655 444 -747 7820 
280009.7357 628 -577 7713 
280164.6059 323 -806 7800 
280319.4761 495 -658 7770 
280474.3463 394 -732 7930 
280629.2165 506 -710 7804 
280784.0867 360 -995 8078 
280938.9569 616 -729 7907 
281093.8271 435 -640 7687 
281248.6973 514 -617 7820 
281403.5675 361 -799 8145 
281558.4377 538 -802 7887 
281713.3079 666 -754 7891 
281868.1781 342 -821 7842 
282023.0483 440 -643 7769 
282177.9185 530 -751 7879 
282332.7887 440 -755 7769 
282487.6589 428 -762 8008 
282642.5291 470 -736 7781 
282797.3993 556 -673 7902 
282952.2695 470 -658 7842 
283107.1397 327 -725 8006 
283262.0099 511 -725 7801 
283416.8801 357 -677 7877 
283571.7502 485 -677 7987 
283726.6204 425 -777 7846 
283881.4906 477 -644 7641 
284036.3608 342 -755 7998 
284191.231 556 -692 7854 
284346.1012 556 -673 7902 
284500.9714 537 -788 7952 
284655.8416 386 -877 8055 
284810.7118 638 -599 7812 
284965.582 514 -762 7972 
285120.4522 469 -728 8048 
285275.3224 665 -510 7759 
285430.1926 495 -721 7762 
285585.0628 522 -766 7846 
285739.933 469 -695 7854 
285894.8032 548 -762 7956 
286049.6734 519 -658 7786 
286204.5436 364 -917 7968 
286359.4138 590 -610 8059 
286514.284 312 -699 7877 
286669.1542 621 -788 7808 
286824.0244 361 -610 7918 
286978.8946 556 -773 7926 
287133.7647 564 -758 7766 
287288.6349 462 -677 7850 
287443.5051 548 -762 7956 
287598.3753 613 -577 7652 
287753.2455 425 -836 7888 
287908.1157 545 -643 7850 
288062.9859 436 -710 7968 
288217.8561 628 -673 7755 
288372.7263 470 -706 7903 
288527.5965 492 -695 7820 
288682.4667 515 -792 7896 
288837.3369 481 -725 7926 
288992.2071 548 -762 7956 
289147.0773 450 -666 7831 
289301.9475 458 -644 7850 
289456.8177 412 -866 7812 
289611.6879 540 -677 7793 
289766.5581 435 -777 7797 
289921.4283 398 -773 8051 
290076.2985 661 -706 7790 
290231.1687 424 -562 7915 
290386.0389 537 -669 7884 
290540.9091 469 -669 7941 
290695.7792 530 -706 7782 
290850.6494 470 -736 7899 
291005.5196 583 -588 7804 
291160.3898 285 -803 7979 
291315.26 590 -573 7843 
291470.1302 379 -806 7892 
291625.0004 485 -725 7725 
291779.8706 462 -736 7770 
291934.7408 447 -777 7789 
292089.611 635 -632 7941 
292244.4812 455 -710 7899 
292399.3514 462 -695 7815 
292554.2216 398 -784 7895 
292709.0918 538 -618 7735 
292863.962 511 -721 7910 
293018.8322 504 -754 7724 
293173.7024 688 -573 7838 
293328.5726 485 -606 7868 
293483.4428 473 -795 8088 
293638.313 635 -632 7941 
293793.1832 414 -743 7983 
293948.0534 515 -625 7812 
294102.9236 609 -684 7766 
294257.7938 466 -884 7907 
294412.6639 458 -692 8024 
294567.5341 466 -743 7812 
294722.4043 425 -769 7934 
294877.2745 458 -621 8013 
295032.1447 538 -736 7869 
295187.0149 538 -858 7918 
295341.8851 380 -836 8062 
295496.7553 444 -662 7982 
295651.6255 417 -662 7780 
295806.4957 312 -603 8024 
295961.3659 508 -758 7819 
296116.2361 300 -595 7849 
296271.1063 410 -814 7910 
296425.9765 470 -529 7693 
296580.8467 402 -858 7940 
296735.7169 402 -744 7921 
296890.5871 496 -721 7974 
297045.4573 639 -714 7678 
297200.3275 368 -751 7822 
297355.1977 553 -596 7922 
297510.0679 368 -806 7842 
297664.9381 545 -703 7925 
297819.8083 368 -766 7868 
297974.6784 481 -643 7860 
298129.5486 523 -647 8096 
298284.4188 402 -744 7921 
298439.289 334 -684 7784 
298594.1592 428 -758 7925 
298749.0294 545 -581 7705 
298903.8996 481 -751 8008 
299058.7698 466 -769 7906 
299213.64 519 -728 7868 
299368.5102 598 -710 7853 
299523.3804 447 -717 8016 
299678.2506 504 -725 8005 
299833.1208 421 -669 7800 
299987.991 481 -817 7823 
300142.8612 421 -677 7968 
300297.7314 545 -728 7831 
300452.6016 432 -751 7816 
300607.4718 451 -773 7937 
300762.342 508 -740 7884 
300917.2122 387 -769 7850 
301072.0824 586 -654 7861 
301226.9526 541 -662 7880 
301381.8228 515 -673 7790 
301536.693 544 -777 7816 
301691.5631 439 -784 7918 
301846.4333 420 -695 7793 
302001.3035 650 -718 7926 
302156.1737 254 -873 7900 
302311.0439 627 -495 7683 
302465.9141 367 -888 7884 
302620.7843 556 -703 7865 
302775.6545 318 -788 8032 
302930.5247 515 -673 7790 
303085.3949 474 -695 7858 
303240.2651 583 -673 7930 
303395.1353 508 -792 7763 
303550.0055 451 -814 7911 
303704.8757 605 -703 7884 
303859.7459 417 -784 7869 
304014.6161 564 -755 7903 
304169.4863 560 -684 7884 
304324.3565 466 -758 8009 
304479.2267 515 -673 7790 
304634.0969 533 -706 7945 
304788.9671 424 -692 7763 
304943.8373 412 -725 7998 
305098.7075 616 -521 7709 
305253.5776 416 -799 7918 
305408.4478 375 -669 7816 
305563.318 408 -710 7831 
305718.1882 469 -728 7854 
305873.0584 499 -651 7934 
306027.9286 515 -673 7790 
306182.7988 319 -658 7884 
306337.669 296 -799 7975 
306492.5392 602 -551 7679 
306647.4094 530 -810 7842 
306802.2796 466 -621 7876 
306957.1498 485 -784 7858 
307112.02 477 -647 7694 
307266.8902 444 -747 7820 
307421.7604 628 -577 7713 
307576.6306 323 -806 7800 
307731.5008 495 -658 7770 
307886.371 394 -732 7930 
308041.2412 506 -710 7804 
308196.1114 360 -995 8078 
308350.9816 616 -729 7907 
308505.8518 435 -640 7687 
308660.722 514 -617 7820 
308815.5921 361 -799 8145 
308970.4623 538 -802 7887 
309125.3325 666 -754 7891 
309280.2027 342 -821 7842 
309435.0729 440 -643 7769 
309589.9431 530 -751 7879 
309744.8133 440 -755 7769 
309899.6835 428 -762 8008 
310054.5537 470 -736 7781 
310209.4239 556 -673 7902 
310364.2941 470 -658 7842 
310519.1643 327 -725 8006 
310674.0345 511 -725 7801 
310828.9047 357 -677 7877 
310983.7749 485 -677 7987 
311138.6451 425 -777 7846 
311293.5153 477 -644 7641 
311448.3855 342 -755 7998 
311603.2557 556 -692 7854 
311758.1259 556 -673 7902 
311912.9961 537 -788 7952 
312067.8663 386 -877 8055 
312222.7365 638 -599 7812 
312377.6067 514 -762 7972 
312532.4768 469 -728 8048 
312687.347 665 -510 7759 
312842.2172 495 -721 7762 
312997.0874 522 -766 7846 
313151.9576 469 -695 7854 
313306.8278 548 -762 7956 
313461.698 519 -658 7786 
313616.5682 364 -917 7968 
313771.4384 590 -610 8059 
313926.3086 312 -699 7877 
314081.1788 621 -788 7808 
314236.049 361 -610 7918 
314390.9192 556 -773 7926 
314545.7894 564 -758 7766 
314700.6596 462 -677 7850 
314855.5298 548 -762 7956 
315010.4 613 -577 7652 
315165.2702 425 -836 7888 
315320.1404 545 -643 7850 
315475.0106 436 -710 7968 
315629.8808 628 -673 7755 
315784.751 470 -706 7903 
315939.6212 492 -695 7820 
316094.4913 515 -792 7896 
316249.3615 481 -725 7926 
316404.2317 548 -762 7956 
316559.1019 450 -666 7831 
316713.9721 458 -644 7850 
316868.8423 412 -866 7812 
317023.7125 540 -677 7793 
317178.5827 435 -777 7797 
317333.4529 398 -773 8051 
317488.3231 661 -706 7790 
317643.1933 424 -562 7915 
317798.0635 537 -669 7884 
317952.9337 469 -669 7941 
318107.8039 530 -706 7782 
318262.6741 470 -736 7899 
318417.5443 583 -588 7804 
318572.4145 285 -803 7979 
318727.2847 590 -573 7843 
318882.1549 379 -806 7892 
319037.0251 485 -725 7725 
319191.8953 462 -736 7770 
319346.7655 447 -777 7789 
319501.6357 635 -632 7941 
319656.5058 455 -710 7899 
319811.376 462 -695 7815 
319966.2462 398 -784 7895 
320121.1164 538 -618 7735 
320275.9866 511 -721 7910 
320430.8568 504 -754 7724 
320585.727 688 -573 7838 
320740.5972 485 -606 7868 
320895.4674 473 -795 8088 
321050.3376 635 -632 7941 
321205.2078 414 -743 7983 
321360.078 515 -625 7812 
321514.9482 609 -684 7766 
321669.8184 466 -884 7907 
321824.6886 458 -692 8024 
321979.5588 466 -743 7812 
322134.429 425 -769 7934 
322289.2992 458 -621 8013 
322444.1694 538 -736 7869 
322599.0396 538 -858 7918 
322753.9098 380 -836 8062 
322908.78 444 -662 7982 
323063.6502 417 -662 7780 
323218.5204 312 -603 8024 
323373.3905 508 -758 7819 
323528.2607 300 -595 7849 
323683.1309 410 -814 7910 
323838.0011 470 -529 7693 
323992.8713 402 -858 7940 
324147.7415 402 -744 7921 
324302.6117 496 -721 7974 
324457.4819 639 -714 7678 
324612.3521 368 -751 7822 
324767.2223 553 -596 7922 
324922.0925 368 -806 7842 
325076.9627 545 -703 7925 
325231.8329 368 -766 7868 
325386.7031 481 -643 7860 
325541.5733 523 -647 8096 
325696.4435 402 -744 7921 
325851.3137 334 -684 7784 
326006.1839 428 -758 7925 
326161.0541 545 -581 7705 
326315.9243 481 -751 8008 
326470.7945 466 -769 7906 
326625.6647 519 -728 7868 
326780.5349 598 -710 7853 
326935.405 447 -717 8016 
327090.2752 504 -725 8005 
327245.1454 421 -669 7800 
327400.0156 481 -817 7823 
327554.8858 421 -677 7968 
327709.756 545 -728 7831 
327864.6262 432 -751 7816 
328019.4964 451 -773 7937 
328174.3666 508 -740 7884 
328329.2368 387 -769 7850 
328484.107 586 -654 7861 
328638.9772 541 -662 7880 
328793.8474 515 -673 7790 
328948.7176 544 -777 7816 
329103.5878 439 -784 7918 
329258.458 420 -695 7793 
329413.3282 650 -718 7926 
329568.1984 254 -873 7900 
329723.0686 627 -495 7683 
329877.9388 367 -888 7884 
330032.809 556 -703 7865 
330187.6792 318 -788 8032 
330342.5494 515 -673 7790 
330497.4195 474 -695 7858 
330652.2897 583 -673 7930 
330807.1599 508 -792 7763 
330962.0301 451 -814 7911 
331116.9003 605 -703 7884 
331271.7705 417 -784 7869 
331426.6407 564 -755 7903 
331581.5109 560 -684 7884 
331736.3811 466 -758 8009 
331891.2513 515 -673 7790 
332046.1215 533 -706 7945 
332200.9917 424 -692 7763 
332355.8619 412 -725 7998 
332510.7321 616 -521 7709 
332665.6023 416 -799 7918 
332820.4725 375 -669 7816 
332975.3427 408 -710 7831 
333130.2129 469 -728 7854 
333285.0831 499 -651 7934 
333439.9533 515 -673 7790 
333594.8235 319 -658 7884 
333749.6937 296 -799 7975 
333904.5639 602 -551 7679 
334059.4341 530 -810 7842 
334214.3042 466 -621 7876 
334369.1744 485 -784 7858 
334524.0446 477 -647 7694 
334678.9148 444 -747 7820 
334833.785 628 -577 7713 
334988.6552 323 -806 7800 
335143.5254 495 -658 7770 
335298.3956 394 -732 7930 
335453.2658 506 -710 7804 
335608.136 360 -995 8078 
335763.0062 616 -729 7907 
335917.8764 435 -640 7687 
336072.7466 514 -617 7820 
336227.6168 361 -799 8145 
336382.487 538 -802 7887 
336537.3572 666 -754 7891 
336692.2274 342 -821 7842 
336847.0976 440 -643 7769 
337001.9678 530 -751 7879 
337156.838 440 -755 7769 
337311.7082 428 -762 8008 
337466.5784 470 -736 7781 
337621.4486 556 -673 7902 
337776.3187 470 -658 7842 
337931.1889 327 -725 8006 
338086.0591 511 -725 7801 
338240.9293 357 -677 7877 
338395.7995 485 -677 7987 
338550.6697 425 -777 7846 
338705.5399 477 -644 7641 
338860.4101 342 -755 7998 
339015.2803 556 -692 7854 
339170.1505 556 -673 7902 
339325.0207 537 -788 7952 
339479.8909 386 -877 8055 
339634.7611 638 -599 7812 
339789.6313 514 -762 7972 
339944.5015 469 -728 8048 
340099.3717 665 -510 7759 
340254.2419 495 -721 7762 
340409.1121 522 -766 7846 
340563.9823 469 -695 7854 
340718.8525 548 -762 7956 
340873.7227 519 -658 7786 
341028.5929 364 -917 7968 
341183.4631 590 -610 8059 
341338.3333 312 -699 7877 
341493.2034 621 -788 7808 
341648.0736 361 -610 7918 
341802.9438 556 -773 7926 
341957.814 564 -758 7766 
342112.6842 462 -677 7850 
342267.5544 548 -762 7956 
342422.4246 613 -577 7652 
342577.2948 425 -836 7888 
342732.165 545 -643 7850 
342887.0352 436 -710 7968 
343041.9054 628 -673 7755 
343196.7756 470 -706 7903 
343351.6458 492 -695 7820 
343506.516 515 -792 7896 
343661.3862 481 -725 7926 
343816.2564 548 -762 7956 
343971.1266 450 -666 7831 
344125.9968 458 -644 7850 
344280.867 412 -866 7812 
344435.7372 540 -677 7793 
344590.6074 435 -777 7797 
344745.4776 398 -773 8051 
344900.3478 661 -706 7790 
345055.2179 424 -562 7915 
345210.0881 537 -669 7884 
345364.9583 469 -669 7941 
345519.8285 530 -706 7782 
345674.6987 470 -736 7899 
345829.5689 583 -588 7804 
345984.4391 285 -803 7979 
346139.3093 590 -573 7843 
346294.1795 379 -806 7892 
346449.0497 485 -725 7725 
346603.9199 462 -736 7770 
346758.7901 447 -777 7789 
346913.6603 635 -632 7941 
347068.5305 455 -710 7899 
347223.4007 462 -695 7815 
347378.2709 398 -784 7895 
347533.1411 538 -618 7735 
347688.0113 511 -721 7910 
347842.8815 504 -754 7724 
347997.7517 688 -573 7838 
348152.6219 485 -606 7868 
348307.4921 473 -795 8088 
348462.3623 635 -632 7941 
348617.2324 414 -743 7983 
348772.1026 515 -625 7812 
348926.9728 609 -684 7766 
349081.843 466 -884 7907 
349236.7132 458 -692 8024 
349391.5834 466 -743 7812 
349546.4536 425 -769 7934 
349701.3238 458 -621 8013 
349856.194 538 -736 7869 
350011.0642 538 -858 7918 
350165.9344 380 -836 8062 
350320.8046 444 -662 7982 
350475.6748 417 -662 7780 
350630.545 312 -603 8024 
350785.4152 508 -758 7819 
350940.2854 300 -595 7849 
351095.1556 410 -814 7910 
351250.0258 470 -529 7693 
351404.896 402 -858 7940 
351559.7662 402 -744 7921 
351714.6364 496 -721 7974 
351869.5066 639 -714 7678 
352024.3768 368 -751 7822 
352179.247 553 -596 7922 
352334.1171 368 -806 7842 
352488.9873 545 -703 7925 
352643.8575 368 -766 7868 
352798.7277 481 -643 7860 
352953.5979 523 -647 8096 
353108.4681 402 -744 7921 
353263.3383 334 -684 7784 
353418.2085 428 -758 7925 
353573.0787 545 -581 7705 
353727.9489 481 -751 8008 
353882.8191 466 -769 7906 
354037.6893 519 -728 7868 
354192.5595 598 -710 7853 
354347.4297 447 -717 8016 
354502.2999 504 -725 8005 
354657.1701 421 -669 7800 
354812.0403 481 -817 7823 
354966.9105 421 -677 7968 
355121.7807 545 -728 7831 
355276.6509 432 -751 7816 
355431.5211 451 -773 7937 
355586.3913 508 -740 7884 
355741.2615 387 -769 7850 
355896.1316 586 -654 7861 
356051.0018 541 -662 7880 
356205.872 515 -673 7790 
356360.7422 544 -777 7816 
356515.6124 439 -784 7918 
356670.4826 420 -695 7793 
356825.3528 650 -718 7926 
356980.223 254 -873 7900 
357135.0932 627 -495 7683 
357289.9634 367 -888 7884 
357444.8336 556 -703 7865 
357599.7038 318 -788 8032 
357754.574 515 -673 7790 
357909.4442 474 -695 7858 
358064.3144 583 -673 7930 
358219.1846 508 -792 7763 
358374.0548 451 -814 7911 
358528.925 605 -703 7884 
358683.7952 417 -784 7869 
358838.6654 564 -755 7903 
358993.5356 560 -684 7884 
359148.4058 466 -758 8009 
359303.276 515 -673 7790 
359458.1461 533 -706 7945 
359613.0163 424 -692 7763 
359767.8865 412 -725 7998 
359922.7567 616 -521 7709 
360077.6269 416 -799 7918 
360232.4971 375 -669 7816 
360387.3673 408 -710 7831 
360542.2375 469 -728 7854 
360697.1077 499 -651 7934 
360851.9779 515 -673 7790 
361006.8481 319 -658 7884 
361161.7183 296 -799 7975 
361316.5885 602 -551 7679 
361471.4587 530 -810 7842 
361626.3289 466 -621 7876 
361781.1991 485 -784 7858 
361936.0693 477 -647 7694 
362090.9395 444 -747 7820 
362245.8097 628 -577 7713 
362400.6799 323 -806 7800 
362555.5501 495 -658 7770 
362710.4203 394 -732 7930 
362865.2905 506 -710 7804 
363020.1607 360 -995 8078 
363175.0308 616 -729 7907 
363329.901 435 -640 7687 
363484.7712 514 -617 7820 
363639.6414 361 -799 8145 
363794.5116 538 -802 7887 
363949.3818 666 -754 7891 
364104.252 342 -821 7842 
364259.1222 440 -643 7769 
364413.9924 530 -751 7879 
364568.8626 440 -755 7769 
364723.7328 428 -762 8008 
364878.603 470 -736 7781 
365033.4732 556 -673 7902 
365188.3434 470 -658 7842 
365343.2136 327 -725 8006 
365498.0838 511 -725 7801 
365652.954 357 -677 7877 
365807.8242 485 -677 7987 
365962.6944 425 -777 7846 
366117.5646 477 -644 7641 
366272.4348 342 -755 7998 
366427.305 556 -692 7854 
366582.1752 556 -673 7902 
366737.0453 537 -788 7952 
366891.9155 386 -877 8055 
367046.7857 638 -599 7812 
367201.6559 514 -762 7972 
367356.5261 469 -728 8048 
367511.3963 665 -510 7759 
367666.2665 495 -721 7762 
367821.1367 522 -766 7846 
367976.0069 469 -695 7854 
368130.8771 548 -762 7956 
368285.7473 519 -658 7786 
368440.6175 364 -917 7968 
368595.4877 590 -610 8059 
368750.3579 312 -699 7877 
368905.2281 621 -788 7808 
369060.0983 361 -610 7918 
369214.9685 556 -773 7926 
369369.8387 564 -758 7766 
369524.7089 462 -677 7850 
369679.5791 548 -762 7956 
369834.4493 613 -577 7652 
369989.3195 425 -836 7888 
370144.1897 545 -643 7850 
370299.0599 436 -710 7968 
370453.93 628 -673 7755 
370608.8002 470 -706 7903 
370763.6704 492 -695 7820 
370918.5406 515 -792 7896 
371073.4108 481 -725 7926 
371228.281 548 -762 7956 
371383.1512 450 -666 7831 
371538.0214 458 -644 7850 
371692.8916 412 -866 7812 
371847.7618 540 -677 7793 
372002.632 435 -777 7797 
372157.5022 398 -773 8051 
372312.3724 661 -706 7790 
372467.2426 424 -562 7915 
372622.1128 537 -669 7884 
372776.983 469 -669 7941 
372931.8532 530 -706 7782 
373086.7234 470 -736 7899 
373241.5936 583 -588 7804 
373396.4638 285 -803 7979 
373551.334 590 -573 7843 
373706.2042 379 -806 7892 
373861.0744 485 -725 7725 
374015.9445 462 -736 7770 
374170.8147 447 -777 7789 
374325.6849 635 -632 7941 
374480.5551 455 -710 7899 
374635.4253 462 -695 7815 
374790.2955 398 -784 7895 
374945.1657 538 -618 7735 
375100.0359 511 -721 7910 
375254.9061 504 -754 7724 
375409.7763 688 -573 7838 
375564.6465 485 -606 7868 
375719.5167 473 -795 8088 
375874.3869 635 -632 7941 
376029.2571 414 -743 7983 
376184.1273 515 -625 7812 
376338.9975 609 -684 7766 
376493.8677 466 -884 7907 
376648.7379 458 -692 8024 
376803.6081 466 -743 7812 
376958.4783 425 -769 7934 
377113.3485 458 -621 8013 
377268.2187 538 -736 7869 
377423.0889 538 -858 7918 
377577.959 380 -836 8062 
377732.8292 444 -662 7982 
377887.6994 417 -662 7780 
378042.5696 312 -603 8024 
378197.4398 508 -758 7819 
378352.31 300 -595 7849 
378507.1802 410 -814 7910 
378662.0504 470 -529 7693 
378816.9206 402 -858 7940 
378971.7908 402 -744 7921 
379126.661 496 -721 7974 
379281.5312 639 -714 7678 
379436.4014 368 -751 7822 
379591.2716 553 -596 7922 
379746.1418 368 -806 7842 
379901.012 545 -703 7925 
380055.8822 368 -766 7868 
380210.7524 481 -643 7860 
380365.6226 523 -647 8096 
380520.4928 402 -744 7921 
380675.363 334 -684 7784 
380830.2332 428 -758 7925 
380985.1034 545 -581 7705 
381139.9736 481 -751 8008 
381294.8437 466 -769 7906 
381449.7139 519 -728 7868 
381604.5841 598 -710 7853 
381759.4543 447 -717 8016 
381914.3245 504 -725 8005 
382069.1947 421 -669 7800 
382224.0649 481 -817 7823 
382378.9351 421 -677 7968 
382533.8053 545 -728 7831 
382688.6755 432 -751 7816 
382843.5457 451 -773 7937 
382998.4159 508 -740 7884 
383153.2861 387 -769 7850 
383308.1563 586 -654 7861 
383463.0265 541 -662 7880 
383617.8967 515 -673 7790 
383772.7669 544 -777 7816 
383927.6371 439 -784 7918 
384082.5073 420 -695 7793 
384237.3775 650 -718 7926 
384392.2477 254 -873 7900 
384547.1179 627 -495 7683 
384701.9881 367 -888 7884 
384856.8582 556 -703 7865 
385011.7284 318 -788 8032 
385166.5986 515 -673 7790 
385321.4688 474 -695 7858 
385476.339 583 -673 7930 
385631.2092 508 -792 7763 
385786.0794 451 -814 7911 
385940.9496 605 -703 7884 
386095.8198 417 -784 7869 
386250.69 564 -755 7903 
386405.5602 560 -684 7884 
386560.4304 466 -758 8009 
386715.3006 515 -673 7790 
386870.1708 533 -706 7945 
